SpectraSuite Datei
++++++++++++++++++++++++++++++++++++
Datum: Wed Dec 07 13:35:41 CET 2022
Benutzer: fpphysik
Dark-Spektrum vorhanden: Ja
Referenz-Spektrum vorhanden: Ja
Zahl der probierten Teilspektren: 1
Spektrometer: USB2G45318
Integrationszeit (usec): 10000 (USB2G45318)
Spektren Durchschnitt berechnet: 1 (USB2G45318)
Boxcar Glättung: 0 (USB2G45318)
Dunkelstromkorrektur: Nein (USB2G45318)
Puls/Lampe aktiviert: Nein (USB2G45318)
Correct for Detector Non-linearity: Nein (USB2G45318)
Streulichtkorrektur: Nein (USB2G45318)
Anzahl Pixel in verarbeitetem Spektrum: 651
>>>>>Begin Processed Spectral Data<<<<<
350,00	-20,78
351,00	4,10
352,00	-4,94
353,00	-7,75
354,00	-3,44
355,00	2,41
356,00	0,12
357,00	-1,84
358,00	0,58
359,00	-6,32
360,00	0,15
361,00	-1,40
362,00	-2,34
363,00	-1,19
364,00	2,33
365,00	2,80
366,00	7,00
367,00	0,34
368,00	0,98
369,00	3,12
370,00	-0,32
371,00	0,74
372,00	1,64
373,00	-1,91
374,00	-0,16
375,00	-6,84
376,00	-2,16
377,00	-2,66
378,00	4,07
379,00	-4,25
380,00	-1,07
381,00	3,26
382,00	-0,48
383,00	5,71
384,00	0,09
385,00	8,68
386,00	-6,02
387,00	-0,35
388,00	-2,04
389,00	-2,59
390,00	-4,27
391,00	-2,12
392,00	5,47
393,00	-0,82
394,00	3,60
395,00	2,81
396,00	-8,34
397,00	3,21
398,00	-3,89
399,00	-6,79
400,00	-2,49
401,00	0,36
402,00	-4,69
403,00	0,79
404,00	7,76
405,00	3,58
406,00	-1,65
407,00	-3,59
408,00	-0,71
409,00	2,73
410,00	-3,98
411,00	3,22
412,00	0,58
413,00	2,07
414,00	3,41
415,00	-2,46
416,00	-1,62
417,00	-3,41
418,00	7,48
419,00	1,36
420,00	-3,52
421,00	-2,21
422,00	2,63
423,00	7,89
424,00	-0,44
425,00	0,11
426,00	-1,25
427,00	5,87
428,00	0,05
429,00	2,96
430,00	-0,26
431,00	-2,86
432,00	-1,82
433,00	-0,71
434,00	1,18
435,00	-0,12
436,00	0,73
437,00	0,99
438,00	0,85
439,00	-3,36
440,00	3,41
441,00	-3,54
442,00	-2,68
443,00	-3,77
444,00	-4,10
445,00	3,82
446,00	10,81
447,00	3,00
448,00	0,33
449,00	-2,09
450,00	-0,46
451,00	1,94
452,00	8,26
453,00	-0,32
454,00	-2,90
455,00	-1,30
456,00	-1,22
457,00	0,37
458,00	4,02
459,00	1,70
460,00	1,23
461,00	1,70
462,00	-3,98
463,00	2,57
464,00	1,22
465,00	2,44
466,00	3,83
467,00	-2,27
468,00	-1,07
469,00	13,83
470,00	5,81
471,00	-1,56
472,00	2,35
473,00	3,00
474,00	-1,35
475,00	1,85
476,00	-2,86
477,00	1,60
478,00	3,12
479,00	-2,78
480,00	3,95
481,00	1,03
482,00	-0,47
483,00	-3,63
484,00	5,24
485,00	2,67
486,00	-1,18
487,00	4,78
488,00	-0,93
489,00	-0,87
490,00	-1,22
491,00	-3,25
492,00	-0,28
493,00	-4,74
494,00	-4,64
495,00	-5,03
496,00	-0,42
497,00	-2,37
498,00	-0,10
499,00	6,12
500,00	-7,99
501,00	0,03
502,00	1,18
503,00	5,08
504,00	3,83
505,00	-5,10
506,00	-15,19
507,00	0,07
508,00	-3,39
509,00	-2,28
510,00	0,28
511,00	4,79
512,00	1,60
513,00	-7,22
514,00	-4,83
515,00	-11,14
516,00	-7,91
517,00	-4,00
518,00	-11,63
519,00	-3,01
520,00	-1,98
521,00	-1,12
522,00	-3,11
523,00	0,87
524,00	-2,41
525,00	-4,57
526,00	5,82
527,00	-0,33
528,00	1,71
529,00	4,15
530,00	2,13
531,00	-1,22
532,00	-5,49
533,00	-4,94
534,00	-1,91
535,00	4,42
536,00	-5,10
537,00	-1,89
538,00	5,92
539,00	0,29
540,00	4,29
541,00	1,32
542,00	-7,34
543,00	-2,11
544,00	2,11
545,00	-18,26
546,00	-7,44
547,00	-1,33
548,00	3,01
549,00	3,77
550,00	0,60
551,00	-2,17
552,00	3,12
553,00	-2,14
554,00	0,71
555,00	1,17
556,00	5,39
557,00	5,14
558,00	-4,00
559,00	-3,66
560,00	1,95
561,00	1,11
562,00	-3,00
563,00	-4,92
564,00	0,07
565,00	-2,20
566,00	0,78
567,00	-0,52
568,00	-0,93
569,00	-2,10
570,00	1,69
571,00	-3,14
572,00	1,99
573,00	4,63
574,00	-8,19
575,00	0,68
576,00	3,11
577,00	4,72
578,00	0,13
579,00	-1,16
580,00	-1,98
581,00	2,58
582,00	6,83
583,00	0,08
584,00	-3,09
585,00	-0,19
586,00	-5,46
587,00	-3,03
588,00	-3,00
589,00	3,60
590,00	-3,16
591,00	-0,99
592,00	3,58
593,00	2,06
594,00	2,25
595,00	2,20
596,00	-5,44
597,00	2,69
598,00	-0,22
599,00	1,25
600,00	0,11
601,00	-1,32
602,00	4,66
603,00	0,71
604,00	15,90
605,00	-0,86
606,00	-2,83
607,00	0,91
608,00	0,58
609,00	-0,48
610,00	11,59
611,00	-1,58
612,00	-1,54
613,00	6,77
614,00	4,79
615,00	1,84
616,00	3,61
617,00	5,97
618,00	0,13
619,00	-0,64
620,00	0,16
621,00	8,11
622,00	2,73
623,00	0,72
624,00	3,58
625,00	9,01
626,00	8,89
627,00	8,42
628,00	1,96
629,00	7,75
630,00	22,34
631,00	32,40
632,00	1186,04
633,00	3073,06
634,00	1184,65
635,00	548,79
636,00	32,78
637,00	9,38
638,00	5,28
639,00	1,93
640,00	1,61
641,00	-3,05
642,00	-2,23
643,00	-3,80
644,00	3,31
645,00	-0,36
646,00	3,21
647,00	4,51
648,00	4,70
649,00	2,72
650,00	-6,65
651,00	-1,54
652,00	-0,30
653,00	6,13
654,00	1,23
655,00	-0,63
656,00	-1,95
657,00	1,18
658,00	6,15
659,00	3,67
660,00	2,52
661,00	1,48
662,00	4,94
663,00	-1,19
664,00	-2,33
665,00	-2,60
666,00	5,19
667,00	1,87
668,00	-3,02
669,00	2,35
670,00	6,90
671,00	-4,93
672,00	-0,81
673,00	5,45
674,00	8,21
675,00	1,55
676,00	-1,51
677,00	7,13
678,00	4,14
679,00	-1,00
680,00	0,64
681,00	2,29
682,00	-2,86
683,00	-7,36
684,00	-0,60
685,00	3,97
686,00	-1,91
687,00	-3,01
688,00	2,10
689,00	-3,00
690,00	-1,20
691,00	-3,47
692,00	-3,75
693,00	0,94
694,00	3,91
695,00	-0,01
696,00	7,10
697,00	-1,75
698,00	2,18
699,00	4,30
700,00	0,92
701,00	2,92
702,00	0,27
703,00	-0,63
704,00	-5,60
705,00	-2,73
706,00	-1,03
707,00	-1,95
708,00	-3,75
709,00	5,62
710,00	-5,55
711,00	7,39
712,00	3,29
713,00	-3,30
714,00	5,50
715,00	9,25
716,00	-1,52
717,00	3,02
718,00	6,73
719,00	5,26
720,00	0,91
721,00	-1,79
722,00	1,25
723,00	3,15
724,00	3,25
725,00	3,21
726,00	3,65
727,00	6,34
728,00	-0,96
729,00	1,14
730,00	4,44
731,00	-2,35
732,00	3,17
733,00	1,71
734,00	-8,88
735,00	1,67
736,00	-2,46
737,00	-4,50
738,00	-2,78
739,00	-11,79
740,00	-2,85
741,00	-0,92
742,00	1,09
743,00	-6,75
744,00	5,90
745,00	-1,48
746,00	-4,81
747,00	4,60
748,00	2,37
749,00	-7,65
750,00	-0,34
751,00	-4,38
752,00	-2,86
753,00	4,00
754,00	0,74
755,00	-1,69
756,00	-4,47
757,00	-4,36
758,00	0,27
759,00	4,55
760,00	2,94
761,00	-1,06
762,00	0,39
763,00	3,02
764,00	2,12
765,00	-0,30
766,00	1,66
767,00	0,64
768,00	-7,34
769,00	0,04
770,00	-3,56
771,00	-1,67
772,00	-0,72
773,00	2,91
774,00	1,59
775,00	2,77
776,00	3,79
777,00	-4,13
778,00	2,42
779,00	8,16
780,00	7,29
781,00	-4,52
782,00	-4,34
783,00	-0,45
784,00	8,00
785,00	9,34
786,00	-0,36
787,00	3,46
788,00	3,39
789,00	-4,79
790,00	-3,47
791,00	-4,12
792,00	-1,29
793,00	-5,00
794,00	3,33
795,00	0,96
796,00	-1,00
797,00	2,93
798,00	-1,41
799,00	5,18
800,00	-3,69
801,00	3,01
802,00	-3,25
803,00	5,95
804,00	1,74
805,00	3,49
806,00	-0,72
807,00	5,80
808,00	2,59
809,00	-0,70
810,00	0,01
811,00	2,32
812,00	6,84
813,00	-2,36
814,00	1,24
815,00	-7,06
816,00	-2,43
817,00	-3,25
818,00	4,16
819,00	-3,62
820,00	-6,27
821,00	8,12
822,00	1,60
823,00	-4,21
824,00	4,11
825,00	-0,50
826,00	-4,98
827,00	2,78
828,00	1,57
829,00	1,51
830,00	0,84
831,00	-1,84
832,00	5,26
833,00	4,03
834,00	4,74
835,00	-1,39
836,00	0,43
837,00	7,09
838,00	-3,88
839,00	2,37
840,00	-1,64
841,00	-1,04
842,00	-3,74
843,00	0,73
844,00	-0,59
845,00	-6,41
846,00	5,75
847,00	2,46
848,00	5,18
849,00	-0,25
850,00	-0,49
851,00	-8,83
852,00	1,49
853,00	-3,84
854,00	1,02
855,00	-5,11
856,00	6,18
857,00	-2,60
858,00	2,63
859,00	-7,04
860,00	-2,62
861,00	13,16
862,00	-3,34
863,00	1,52
864,00	3,80
865,00	-1,61
866,00	-7,30
867,00	2,38
868,00	1,02
869,00	5,63
870,00	2,97
871,00	1,60
872,00	-0,89
873,00	3,67
874,00	2,58
875,00	4,14
876,00	-5,04
877,00	-5,96
878,00	-0,95
879,00	-1,40
880,00	11,94
881,00	3,19
882,00	-0,72
883,00	-1,79
884,00	-3,85
885,00	6,90
886,00	-7,91
887,00	-8,21
888,00	-5,42
889,00	5,60
890,00	0,44
891,00	-4,08
892,00	4,80
893,00	-0,79
894,00	1,66
895,00	1,31
896,00	-2,25
897,00	-1,99
898,00	0,41
899,00	4,32
900,00	-5,15
901,00	-0,11
902,00	-2,81
903,00	-0,73
904,00	-4,29
905,00	3,00
906,00	1,22
907,00	7,48
908,00	-6,99
909,00	1,37
910,00	-4,68
911,00	0,75
912,00	10,28
913,00	-2,63
914,00	2,01
915,00	-0,46
916,00	0,75
917,00	-6,16
918,00	-1,79
919,00	0,06
920,00	4,01
921,00	-0,46
922,00	-5,79
923,00	-0,79
924,00	2,28
925,00	-2,82
926,00	3,88
927,00	4,65
928,00	1,47
929,00	-1,03
930,00	-4,39
931,00	4,04
932,00	0,54
933,00	-0,11
934,00	4,72
935,00	0,62
936,00	0,62
937,00	-2,30
938,00	0,52
939,00	5,09
940,00	3,26
941,00	-1,13
942,00	3,44
943,00	-0,09
944,00	3,08
945,00	-0,14
946,00	-0,19
947,00	1,53
948,00	-2,69
949,00	-0,66
950,00	-6,28
951,00	-1,01
952,00	1,44
953,00	0,49
954,00	0,55
955,00	0,81
956,00	1,00
957,00	3,97
958,00	-2,93
959,00	2,66
960,00	-1,40
961,00	0,47
962,00	-2,00
963,00	7,94
964,00	3,04
965,00	5,15
966,00	-3,20
967,00	1,26
968,00	-0,13
969,00	-7,43
970,00	8,49
971,00	-7,57
972,00	-0,15
973,00	2,35
974,00	5,91
975,00	0,18
976,00	-0,02
977,00	-3,80
978,00	3,83
979,00	1,94
980,00	1,34
981,00	12,61
982,00	3,26
983,00	1,56
984,00	2,98
985,00	1,71
986,00	4,81
987,00	4,00
988,00	3,31
989,00	1,52
990,00	1,22
991,00	2,31
992,00	4,84
993,00	0,57
994,00	-3,79
995,00	-3,94
996,00	0,03
997,00	3,62
998,00	-2,09
999,00	-4,89
1000,00	1,84
>>>>>End Processed Spectral Data<<<<<
