SpectraSuite Datei
++++++++++++++++++++++++++++++++++++
Datum: Wed Dec 07 14:08:24 CET 2022
Benutzer: fpphysik
Dark-Spektrum vorhanden: Ja
Referenz-Spektrum vorhanden: Ja
Zahl der probierten Teilspektren: 1
Spektrometer: USB2G45318
Integrationszeit (usec): 300000 (USB2G45318)
Spektren Durchschnitt berechnet: 3 (USB2G45318)
Boxcar Glättung: 0 (USB2G45318)
Dunkelstromkorrektur: Nein (USB2G45318)
Puls/Lampe aktiviert: Nein (USB2G45318)
Correct for Detector Non-linearity: Nein (USB2G45318)
Streulichtkorrektur: Nein (USB2G45318)
Anzahl Pixel in verarbeitetem Spektrum: 651
>>>>>Begin Processed Spectral Data<<<<<
350,00	-2,60
351,00	1,26
352,00	0,09
353,00	2,01
354,00	-0,92
355,00	0,60
356,00	-2,40
357,00	-2,55
358,00	2,08
359,00	1,49
360,00	2,36
361,00	0,74
362,00	-1,10
363,00	0,23
364,00	-0,43
365,00	0,49
366,00	0,07
367,00	-2,12
368,00	-1,61
369,00	2,46
370,00	-0,89
371,00	-1,73
372,00	-3,15
373,00	-0,37
374,00	-1,58
375,00	-0,41
376,00	-1,87
377,00	-1,78
378,00	-0,59
379,00	-3,01
380,00	-2,20
381,00	0,39
382,00	-0,94
383,00	0,91
384,00	-2,70
385,00	-1,70
386,00	-0,85
387,00	0,33
388,00	-0,92
389,00	-9,81
390,00	1,00
391,00	0,26
392,00	-0,72
393,00	1,06
394,00	-2,40
395,00	1,40
396,00	5,25
397,00	0,52
398,00	2,85
399,00	1,74
400,00	-2,25
401,00	-0,32
402,00	-2,46
403,00	2,52
404,00	-1,49
405,00	-3,38
406,00	-0,40
407,00	-0,59
408,00	3,11
409,00	-2,36
410,00	-0,96
411,00	-0,49
412,00	-0,66
413,00	0,83
414,00	-2,23
415,00	3,11
416,00	-0,06
417,00	6,65
418,00	-1,38
419,00	-3,53
420,00	-2,23
421,00	-2,58
422,00	-0,19
423,00	1,97
424,00	2,70
425,00	3,43
426,00	-1,28
427,00	-0,51
428,00	-2,89
429,00	2,80
430,00	2,39
431,00	-4,07
432,00	-0,13
433,00	0,22
434,00	-1,20
435,00	-2,84
436,00	3,20
437,00	2,00
438,00	0,65
439,00	1,40
440,00	1,08
441,00	-4,20
442,00	-1,86
443,00	1,49
444,00	1,17
445,00	-1,64
446,00	-1,43
447,00	-5,70
448,00	-6,03
449,00	5,08
450,00	4,03
451,00	2,00
452,00	-2,49
453,00	3,44
454,00	-2,32
455,00	-0,97
456,00	-4,61
457,00	-0,66
458,00	-0,47
459,00	-2,46
460,00	0,88
461,00	1,25
462,00	1,63
463,00	-1,00
464,00	-0,60
465,00	0,58
466,00	-2,06
467,00	0,65
468,00	2,99
469,00	-1,33
470,00	2,87
471,00	4,98
472,00	0,52
473,00	-2,14
474,00	-0,75
475,00	1,82
476,00	-1,71
477,00	2,18
478,00	-0,33
479,00	0,22
480,00	-0,17
481,00	-0,66
482,00	-1,36
483,00	1,70
484,00	-1,54
485,00	-2,09
486,00	-1,17
487,00	2,63
488,00	-0,85
489,00	3,42
490,00	3,00
491,00	-0,58
492,00	-2,21
493,00	-7,90
494,00	0,18
495,00	2,96
496,00	-2,34
497,00	0,28
498,00	-0,80
499,00	2,66
500,00	1,64
501,00	3,84
502,00	11,40
503,00	-2,98
504,00	-2,31
505,00	0,89
506,00	-1,23
507,00	2,33
508,00	-2,16
509,00	-1,25
510,00	-1,16
511,00	-0,81
512,00	-2,31
513,00	4,83
514,00	-0,40
515,00	0,29
516,00	1,32
517,00	-3,42
518,00	-2,74
519,00	4,24
520,00	6,49
521,00	1,37
522,00	5,74
523,00	3,06
524,00	-0,75
525,00	0,26
526,00	1,86
527,00	-1,28
528,00	28,45
529,00	-1,54
530,00	-2,29
531,00	-2,92
532,00	-1,10
533,00	-3,38
534,00	-5,01
535,00	-1,39
536,00	1,62
537,00	2,39
538,00	-2,93
539,00	3,80
540,00	1,42
541,00	3,07
542,00	-1,33
543,00	-9,92
544,00	-2,22
545,00	1,19
546,00	-1,23
547,00	-2,27
548,00	-0,86
549,00	1,94
550,00	-0,91
551,00	1,15
552,00	0,75
553,00	0,17
554,00	-0,80
555,00	-3,43
556,00	-1,52
557,00	-1,34
558,00	2,12
559,00	0,21
560,00	-3,41
561,00	-0,88
562,00	0,17
563,00	-0,15
564,00	-0,88
565,00	2,10
566,00	-6,13
567,00	0,98
568,00	-0,38
569,00	-4,67
570,00	-0,09
571,00	-2,66
572,00	0,78
573,00	-2,81
574,00	-0,86
575,00	-1,49
576,00	-2,73
577,00	-2,99
578,00	-4,83
579,00	0,83
580,00	1,21
581,00	0,54
582,00	-16,30
583,00	-7,21
584,00	-1,20
585,00	-9,11
586,00	-8,42
587,00	15,89
588,00	4,97
589,00	-2,90
590,00	-9,90
591,00	-10,99
592,00	-3,45
593,00	1,90
594,00	117,81
595,00	111,28
596,00	32,13
597,00	-3,50
598,00	1,98
599,00	1,57
600,00	-2,40
601,00	2,99
602,00	0,94
603,00	-13,34
604,00	-8,00
605,00	-9,96
606,00	23,56
607,00	37,19
608,00	32,65
609,00	90,80
610,00	180,25
611,00	56,57
612,00	-7,32
613,00	3,66
614,00	-17,45
615,00	-5,01
616,00	-15,56
617,00	-7,12
618,00	-0,49
619,00	-0,50
620,00	6,70
621,00	-9,93
622,00	-2,24
623,00	-1,33
624,00	5,39
625,00	2,48
626,00	9,55
627,00	11,38
628,00	0,29
629,00	-12,88
630,00	-12,79
631,00	0,91
632,00	-10,25
633,00	-88,51
634,00	-28,73
635,00	-14,47
636,00	-2,89
637,00	-2,80
638,00	-21,43
639,00	-11,76
640,00	0,05
641,00	-0,99
642,00	-15,98
643,00	1,54
644,00	0,50
645,00	-1,90
646,00	3,96
647,00	-0,83
648,00	0,60
649,00	-3,68
650,00	-21,19
651,00	-21,52
652,00	-16,08
653,00	-4,61
654,00	1,88
655,00	1,99
656,00	3,08
657,00	-1,34
658,00	0,65
659,00	-6,72
660,00	-9,20
661,00	-4,65
662,00	-0,81
663,00	-1,09
664,00	-0,05
665,00	-0,50
666,00	-0,69
667,00	48,58
668,00	-25,92
669,00	44,13
670,00	29,02
671,00	3,22
672,00	2,41
673,00	2,82
674,00	3,34
675,00	-0,17
676,00	-1,07
677,00	-0,86
678,00	2,30
679,00	-3,88
680,00	0,42
681,00	0,77
682,00	2,18
683,00	0,84
684,00	0,79
685,00	-2,61
686,00	-1,52
687,00	-2,34
688,00	3,51
689,00	2,85
690,00	-0,73
691,00	-1,56
692,00	1,84
693,00	0,66
694,00	0,81
695,00	-9,25
696,00	-2,49
697,00	-3,72
698,00	-18,82
699,00	0,04
700,00	1,45
701,00	-0,98
702,00	0,62
703,00	-13,13
704,00	-6,37
705,00	-10,98
706,00	-15,92
707,00	-2,88
708,00	-6,82
709,00	-0,78
710,00	1,02
711,00	-2,56
712,00	1,29
713,00	1,64
714,00	-3,17
715,00	-4,73
716,00	0,23
717,00	0,84
718,00	-4,40
719,00	-0,44
720,00	0,07
721,00	0,26
722,00	-1,50
723,00	2,60
724,00	-0,34
725,00	-9,13
726,00	-10,86
727,00	0,69
728,00	4,96
729,00	2,92
730,00	-1,47
731,00	3,09
732,00	0,54
733,00	-2,56
734,00	-3,03
735,00	-0,41
736,00	-1,63
737,00	0,64
738,00	0,53
739,00	2,98
740,00	5,53
741,00	-2,28
742,00	-1,15
743,00	0,23
744,00	-2,58
745,00	0,32
746,00	-0,26
747,00	-2,27
748,00	1,69
749,00	-6,38
750,00	0,91
751,00	2,68
752,00	0,63
753,00	-1,79
754,00	1,16
755,00	1,02
756,00	2,13
757,00	-4,01
758,00	1,83
759,00	2,98
760,00	-2,48
761,00	2,96
762,00	1,74
763,00	2,67
764,00	2,66
765,00	-1,19
766,00	-1,40
767,00	1,26
768,00	-4,58
769,00	-1,98
770,00	-3,19
771,00	2,23
772,00	-3,73
773,00	-1,17
774,00	-2,08
775,00	0,76
776,00	-0,03
777,00	-1,06
778,00	1,54
779,00	1,90
780,00	-1,53
781,00	-0,70
782,00	1,09
783,00	1,63
784,00	-0,50
785,00	-2,39
786,00	-0,35
787,00	-1,43
788,00	-3,87
789,00	1,52
790,00	3,08
791,00	0,86
792,00	-0,85
793,00	-0,51
794,00	3,90
795,00	1,87
796,00	1,20
797,00	-1,34
798,00	2,58
799,00	-1,60
800,00	-3,75
801,00	0,92
802,00	0,98
803,00	0,84
804,00	-1,02
805,00	-1,90
806,00	-3,25
807,00	-1,67
808,00	1,35
809,00	-3,46
810,00	-0,07
811,00	-2,78
812,00	-1,17
813,00	-2,53
814,00	3,01
815,00	-1,38
816,00	-0,44
817,00	-0,79
818,00	-4,68
819,00	-0,75
820,00	-0,26
821,00	-0,31
822,00	-0,67
823,00	2,26
824,00	2,54
825,00	-1,20
826,00	0,10
827,00	1,82
828,00	-1,32
829,00	1,50
830,00	1,68
831,00	-3,13
832,00	1,27
833,00	-0,63
834,00	-1,24
835,00	-2,62
836,00	-2,99
837,00	-5,05
838,00	-0,47
839,00	-3,78
840,00	-1,69
841,00	-2,76
842,00	-2,48
843,00	-0,49
844,00	-2,57
845,00	-0,74
846,00	1,98
847,00	-1,84
848,00	1,35
849,00	5,80
850,00	1,14
851,00	1,46
852,00	0,06
853,00	-3,34
854,00	3,21
855,00	-1,41
856,00	-1,48
857,00	-0,66
858,00	-1,40
859,00	-0,02
860,00	-2,11
861,00	-0,13
862,00	-0,99
863,00	2,60
864,00	1,39
865,00	0,77
866,00	-2,10
867,00	-0,87
868,00	-0,49
869,00	3,83
870,00	2,36
871,00	1,42
872,00	-1,37
873,00	-3,08
874,00	-0,77
875,00	-2,56
876,00	0,70
877,00	-2,78
878,00	1,79
879,00	-3,36
880,00	-1,71
881,00	1,00
882,00	-2,02
883,00	-2,32
884,00	-1,66
885,00	0,39
886,00	1,32
887,00	-0,28
888,00	-2,45
889,00	-1,16
890,00	-1,59
891,00	-0,38
892,00	1,67
893,00	-0,38
894,00	-1,98
895,00	0,56
896,00	1,45
897,00	-1,44
898,00	-0,98
899,00	1,97
900,00	-2,27
901,00	0,86
902,00	-0,13
903,00	-0,42
904,00	-1,27
905,00	-0,33
906,00	-3,55
907,00	1,07
908,00	3,09
909,00	-1,56
910,00	-1,29
911,00	0,31
912,00	-1,52
913,00	-0,42
914,00	5,11
915,00	-4,69
916,00	-0,05
917,00	-3,53
918,00	0,62
919,00	4,49
920,00	0,20
921,00	-0,50
922,00	-0,55
923,00	1,80
924,00	-4,77
925,00	-0,63
926,00	-1,09
927,00	-1,32
928,00	-3,67
929,00	-3,06
930,00	0,98
931,00	-1,49
932,00	2,04
933,00	1,87
934,00	-0,48
935,00	-0,96
936,00	0,32
937,00	-1,06
938,00	0,78
939,00	-1,81
940,00	1,27
941,00	-1,84
942,00	0,72
943,00	1,54
944,00	0,36
945,00	0,46
946,00	3,06
947,00	0,19
948,00	-1,37
949,00	-3,71
950,00	-0,16
951,00	0,42
952,00	-1,91
953,00	-1,46
954,00	-1,36
955,00	0,54
956,00	2,49
957,00	-2,16
958,00	-1,16
959,00	2,68
960,00	2,73
961,00	1,96
962,00	1,17
963,00	-0,35
964,00	3,65
965,00	-2,95
966,00	1,98
967,00	1,56
968,00	-1,84
969,00	-0,55
970,00	-4,14
971,00	1,23
972,00	-3,35
973,00	3,68
974,00	-2,19
975,00	1,10
976,00	-1,83
977,00	0,84
978,00	2,76
979,00	-3,50
980,00	2,99
981,00	0,93
982,00	2,89
983,00	-0,01
984,00	0,43
985,00	0,65
986,00	-0,91
987,00	-2,12
988,00	2,26
989,00	-0,29
990,00	0,83
991,00	-0,78
992,00	2,67
993,00	0,57
994,00	2,46
995,00	-1,55
996,00	-0,17
997,00	-2,45
998,00	-0,52
999,00	-0,81
1000,00	-0,21
>>>>>End Processed Spectral Data<<<<<
